Angle  Strip1  Strip2  Strip3  Strip4  Strip5
(DEG)  Contr.  Contr.  Phase   Dummy   Height
 
0.00	1.000	0.000	0.000	0.000	0.000
0.29	1.000	0.000	0.000	0.000	0.000
0.59	1.000	0.000	0.000	0.000	0.000
0.88	1.000	0.000	0.000	0.000	0.000
1.17	1.000	0.000	0.000	0.000	0.000
1.47	1.000	0.000	0.000	0.000	0.000
1.76	1.000	0.000	0.000	0.000	0.000
2.05	1.000	0.000	0.000	0.000	0.000
2.35	1.000	0.000	0.000	0.000	0.000
2.64	1.000	0.000	0.000	0.000	0.000
2.93	1.000	0.000	0.000	0.000	0.000
3.23	1.000	0.000	0.000	0.000	0.000
3.52	1.000	0.000	0.000	0.000	0.000
3.81	1.000	0.000	0.000	0.000	0.000
4.11	1.000	0.000	0.000	0.000	0.000
4.40	1.000	0.000	0.000	0.000	0.000
4.69	1.000	0.000	0.000	0.000	0.000
4.99	1.000	0.000	0.000	0.000	0.000
5.28	1.000	0.000	0.000	0.000	0.000
5.57	1.000	0.000	0.000	0.000	0.000
5.87	1.000	0.000	0.000	0.000	0.000
6.16	1.000	0.000	0.000	0.000	0.000
6.45	1.000	0.000	0.000	0.000	0.000
6.75	1.000	0.000	0.000	0.000	0.000
7.04	1.000	0.000	0.000	0.000	0.000
7.33	1.000	0.000	0.000	0.000	0.000
7.63	1.000	0.000	0.000	0.000	0.000
7.92	1.000	0.000	0.000	0.000	0.000
8.22	1.000	0.000	0.000	0.000	0.000
8.51	1.000	0.000	0.000	0.000	0.000
8.80	1.000	0.000	0.000	0.000	0.000
9.10	1.000	0.000	0.000	0.000	0.000
9.39	1.000	0.000	0.000	0.000	0.000
9.68	1.000	0.000	0.000	0.000	0.000
9.98	1.000	0.000	0.000	0.000	0.000
10.27	1.000	0.000	0.000	0.000	0.000
10.56	1.000	0.000	0.000	0.000	0.000
10.86	1.000	0.000	0.000	0.000	0.000
11.15	1.000	0.000	0.000	0.000	0.000
11.44	1.000	0.000	0.000	0.000	0.000
11.74	1.000	0.000	0.000	0.000	0.000
12.03	1.000	0.000	0.000	0.000	0.000
12.32	1.000	0.000	0.000	0.000	0.000
12.62	1.000	0.000	0.000	0.000	0.000
12.91	1.000	0.000	0.000	0.000	0.000
13.20	1.000	0.000	0.000	0.000	0.000
13.50	1.000	0.000	0.000	0.000	0.000
13.79	1.000	0.000	0.000	0.000	0.000
14.08	1.000	0.000	0.000	0.000	0.000
14.38	1.000	0.000	0.000	0.000	0.000
14.67	1.000	0.000	0.000	0.000	0.000
14.96	1.000	0.000	0.000	0.000	0.000
15.26	1.000	0.000	0.000	0.000	0.000
15.55	1.000	0.000	0.000	0.000	0.000
15.84	1.000	0.000	0.000	0.000	0.000
16.14	1.000	0.000	0.000	0.000	0.000
16.43	1.000	0.000	0.000	0.000	0.000
16.72	1.000	0.000	0.000	0.000	0.000
17.02	1.000	0.000	0.000	0.000	0.000
17.31	1.000	0.000	0.000	0.000	0.000
17.60	1.000	0.000	0.000	0.000	0.000
17.90	1.000	0.000	0.000	0.000	0.000
18.19	1.000	0.000	0.000	0.000	0.000
18.48	1.000	0.000	0.000	0.000	0.000
18.78	1.000	0.000	0.000	0.000	0.000
19.07	1.000	0.000	0.000	0.000	0.000
19.36	1.000	0.000	0.000	0.000	0.000
19.66	1.000	0.000	0.000	0.000	0.000
19.95	1.000	0.000	0.000	0.000	0.000
20.24	1.000	0.000	0.000	0.000	0.000
20.54	1.000	0.000	0.000	0.000	0.000
20.83	1.000	0.000	0.000	0.000	0.000
21.12	1.000	0.000	0.000	0.000	0.000
21.42	1.000	0.000	0.000	0.000	0.000
21.71	1.000	0.000	0.000	0.000	0.000
22.00	1.000	0.000	0.000	0.000	0.000
22.30	1.000	0.000	0.000	0.000	0.000
22.59	1.000	0.000	0.000	0.000	0.000
22.89	1.000	0.000	0.000	0.000	0.000
23.18	1.000	0.000	0.000	0.000	0.000
23.47	1.000	0.000	0.000	0.000	0.000
23.77	1.000	0.000	0.000	0.000	0.000
24.06	1.000	0.000	0.000	0.000	0.000
24.35	1.000	0.000	0.000	0.000	0.000
24.65	1.000	0.000	0.000	0.000	0.000
24.94	1.000	0.000	0.000	0.000	0.000
25.23	1.000	0.000	0.000	0.000	0.000
25.53	1.000	0.000	0.000	0.000	0.000
25.82	1.000	0.000	0.000	0.000	0.000
26.11	1.000	0.000	0.000	0.000	0.000
26.41	1.000	0.000	0.000	0.000	0.000
26.70	1.000	0.000	0.000	0.000	0.000
26.99	1.000	0.000	0.000	0.000	0.000
27.29	1.000	0.000	0.000	0.000	0.000
27.58	1.000	0.000	0.000	0.000	0.000
27.87	1.000	0.000	0.000	0.000	0.000
28.17	1.000	0.000	0.000	0.000	0.000
28.46	1.000	0.000	0.000	0.000	0.000
28.75	1.000	0.000	0.000	0.000	0.000
29.05	1.000	0.000	0.000	0.000	0.000
29.34	1.000	0.000	0.000	0.000	0.000
29.63	1.000	0.000	0.000	0.000	0.000
29.93	1.000	0.000	0.000	0.000	0.000
30.22	1.000	0.000	0.000	0.000	0.000
30.51	1.000	0.000	0.000	0.000	0.000
30.81	1.000	0.000	0.000	0.000	0.000
31.10	1.000	0.000	0.000	0.000	0.000
31.39	1.000	0.000	0.000	0.000	0.000
31.69	1.000	0.000	0.000	0.000	0.000
31.98	1.000	0.000	0.000	0.000	0.000
32.27	1.000	0.000	0.000	0.000	0.000
32.57	1.000	0.000	0.000	0.000	0.000
32.86	1.000	0.000	0.000	0.000	0.000
33.15	1.000	0.000	0.000	0.000	0.000
33.45	1.000	0.000	0.000	0.000	0.000
33.74	1.000	0.000	0.000	0.000	0.000
34.03	1.000	0.000	0.000	0.000	0.000
34.33	1.000	0.000	0.000	0.000	0.000
34.62	1.000	0.000	0.000	0.000	0.000
34.91	1.000	0.000	0.000	0.000	0.000
35.21	1.000	0.000	0.000	0.000	0.000
35.50	1.000	0.000	0.000	0.000	0.000
35.79	1.000	0.000	0.000	0.000	0.000
36.09	1.000	0.000	0.000	0.000	0.000
36.38	1.000	0.000	0.000	0.000	0.000
36.67	1.000	0.000	0.000	0.000	0.000
36.97	1.000	0.000	0.000	0.000	0.000
37.26	1.000	0.000	0.000	0.000	0.000
37.56	1.000	0.000	0.000	0.000	0.000
37.85	1.000	0.000	0.000	0.000	0.000
38.14	1.000	0.000	0.000	0.000	0.000
38.44	1.000	0.000	0.000	0.000	0.000
38.73	1.000	0.000	0.000	0.000	0.000
39.02	1.000	0.000	0.000	0.000	0.000
39.32	1.000	0.000	0.000	0.000	0.000
39.61	1.000	0.000	0.000	0.000	0.000
39.90	1.000	0.000	0.000	0.000	0.000
40.20	1.000	0.000	0.000	0.000	0.000
40.49	1.000	0.000	0.000	0.000	0.000
40.78	1.000	0.000	0.000	0.000	0.000
41.08	1.000	0.000	0.000	0.000	0.000
41.37	1.000	0.000	0.000	0.000	0.000
41.66	1.000	0.000	0.000	0.000	0.000
41.96	1.000	0.000	0.000	0.000	0.000
42.25	1.000	0.000	0.000	0.000	0.000
42.54	1.000	0.000	0.000	0.000	0.000
42.84	1.000	0.000	0.000	0.000	0.000
43.13	1.000	0.000	0.000	0.000	0.000
43.42	1.000	0.000	0.000	0.000	0.000
43.72	1.000	0.000	0.000	0.000	0.000
44.01	1.000	0.000	0.000	0.000	0.000
44.30	1.000	0.000	0.000	0.000	0.000
44.60	1.000	0.000	0.000	0.000	0.000
44.89	1.000	0.000	0.000	0.000	0.000
45.18	1.000	0.000	0.000	0.000	0.000
45.48	1.000	0.000	0.000	0.000	0.000
45.77	1.000	0.000	0.000	0.000	0.000
46.06	1.000	0.000	0.000	0.000	0.000
46.36	1.000	0.000	0.000	0.000	0.000
46.65	1.000	0.000	0.000	0.000	0.000
46.94	1.000	0.000	0.000	0.000	0.000
47.24	1.000	0.000	0.000	0.000	0.000
47.53	1.000	0.000	0.000	0.000	0.000
47.82	1.000	0.000	0.000	0.000	0.000
48.12	1.000	0.000	0.000	0.000	0.000
48.41	1.000	0.000	0.000	0.000	0.000
48.70	1.000	0.000	0.000	0.000	0.000
49.00	1.000	0.000	0.000	0.000	0.000
49.29	1.000	0.000	0.000	0.000	0.000
49.58	1.000	0.000	0.000	0.000	0.000
49.88	1.000	0.000	0.000	0.000	0.000
50.17	1.000	0.000	0.000	0.000	0.000
50.46	1.000	0.000	0.000	0.000	0.000
50.76	1.000	0.000	0.000	0.000	0.000
51.05	1.000	0.000	0.000	0.000	0.000
51.34	1.000	0.000	0.000	0.000	0.000
51.64	1.000	0.000	0.000	0.000	0.000
51.93	1.000	0.000	0.000	0.000	0.000
52.22	1.000	0.000	0.000	0.000	0.000
52.52	1.000	0.000	0.000	0.000	0.000
52.81	1.000	0.000	0.000	0.000	0.000
53.11	1.000	0.000	0.000	0.000	0.000
53.40	1.000	0.000	0.000	0.000	0.000
53.69	1.000	0.000	0.000	0.000	0.000
53.99	1.000	0.000	0.000	0.000	0.000
54.28	1.000	0.000	0.000	0.000	0.000
54.57	1.000	0.000	0.000	0.000	0.000
54.87	1.000	0.000	0.000	0.000	0.000
55.16	1.000	0.000	0.000	0.000	0.000
55.45	1.000	0.000	0.000	0.000	0.000
55.75	1.000	0.000	0.000	0.000	0.000
56.04	1.000	0.000	0.000	0.000	0.000
56.33	1.000	0.000	0.000	0.000	0.000
56.63	1.000	0.000	0.000	0.000	0.000
56.92	1.000	0.000	0.000	0.000	0.000
57.21	1.000	0.000	0.000	0.000	0.000
57.51	1.000	0.000	0.000	0.000	0.000
57.80	1.000	0.000	0.000	0.000	0.000
58.09	1.000	0.000	0.000	0.000	0.000
58.39	1.000	0.000	0.000	0.000	0.000
58.68	1.000	0.000	0.000	0.000	0.000
58.97	1.000	0.000	0.000	0.000	0.000
59.27	1.000	0.000	0.000	0.000	0.000
59.56	1.000	0.000	0.000	0.000	0.000
59.85	1.000	0.000	0.000	0.000	0.000
60.15	1.000	0.000	0.000	0.000	0.000
60.44	1.000	0.000	0.000	0.000	0.000
60.73	1.000	0.000	0.000	0.000	0.000
61.03	1.000	0.000	0.000	0.000	0.000
61.32	1.000	0.000	0.000	0.000	0.000
61.61	1.000	0.000	0.000	0.000	0.000
61.91	1.000	0.000	0.000	0.000	0.000
62.20	1.000	0.000	0.000	0.000	0.000
62.49	1.000	0.000	0.000	0.000	0.000
62.79	1.000	0.000	0.000	0.000	0.000
63.08	1.000	0.000	0.000	0.000	0.000
63.37	1.000	0.000	0.000	0.000	0.000
63.67	1.000	0.000	0.000	0.000	0.000
63.96	1.000	0.000	0.000	0.000	0.000
64.25	1.000	0.000	0.000	0.000	0.000
64.55	1.000	0.000	0.000	0.000	0.000
64.84	1.000	0.000	0.000	0.000	0.000
65.13	1.000	0.000	0.000	0.000	0.000
65.43	1.000	0.000	0.000	0.000	0.000
65.72	1.000	0.000	0.000	0.000	0.000
66.01	1.000	0.000	0.000	0.000	0.000
66.31	1.000	0.000	0.000	0.000	0.000
66.60	1.000	0.000	0.000	0.000	0.000
66.89	1.000	0.000	0.000	0.000	0.000
67.19	1.000	0.000	0.000	0.000	0.000
67.48	1.000	0.000	0.000	0.000	0.000
67.78	1.000	0.000	0.000	0.000	0.000
68.07	1.000	0.000	0.000	0.000	0.000
68.36	1.000	0.000	0.000	0.000	0.000
68.66	1.000	0.000	0.000	0.000	0.000
68.95	1.000	0.000	0.000	0.000	0.000
69.24	1.000	0.000	0.000	0.000	0.000
69.54	1.000	0.000	0.000	0.000	0.000
69.83	1.000	0.000	0.000	0.000	0.000
70.12	1.000	0.000	0.000	0.000	0.000
70.42	1.000	0.001	0.665	0.000	0.010
70.71	1.000	0.002	1.328	0.000	0.010
71.00	1.000	0.003	1.989	0.000	0.010
71.30	1.000	0.004	2.648	0.000	0.010
71.59	1.000	0.005	3.305	0.000	0.010
71.88	1.000	0.006	3.961	0.000	0.010
72.18	1.000	0.007	4.614	0.000	0.010
72.47	1.000	0.008	5.266	0.000	0.010
72.76	1.000	0.009	5.915	0.000	0.010
73.06	1.000	0.010	6.563	0.000	0.010
73.35	1.000	0.011	7.209	0.000	0.010
73.64	1.000	0.012	7.852	0.000	0.011
73.94	1.000	0.013	8.494	0.000	0.011
74.23	1.000	0.014	9.134	0.000	0.011
74.52	1.000	0.015	9.773	0.000	0.011
74.82	1.000	0.016	10.409	0.000	0.011
75.11	1.000	0.017	11.044	0.000	0.011
75.40	1.000	0.018	11.676	0.000	0.011
75.70	1.000	0.019	12.307	0.000	0.011
75.99	1.000	0.020	12.936	0.000	0.011
76.28	1.000	0.021	13.563	0.000	0.011
76.58	1.000	0.022	14.188	0.000	0.011
76.87	1.000	0.023	14.812	0.000	0.011
77.16	1.000	0.024	15.433	0.000	0.011
77.46	1.000	0.025	16.053	0.000	0.011
77.75	1.000	0.026	16.671	0.000	0.011
78.04	1.000	0.027	17.287	0.000	0.011
78.34	1.000	0.028	17.902	0.000	0.011
78.63	1.000	0.029	18.514	0.000	0.011
78.92	1.000	0.030	19.125	0.000	0.011
79.22	1.000	0.031	19.734	0.000	0.012
79.51	1.000	0.032	20.341	0.000	0.012
79.80	1.000	0.033	20.947	0.000	0.012
80.10	1.000	0.034	21.550	0.000	0.012
80.39	1.000	0.035	22.152	0.000	0.012
80.68	1.000	0.036	22.752	0.000	0.012
80.98	1.000	0.037	23.351	0.000	0.012
81.27	1.000	0.039	23.947	0.000	0.012
81.56	1.000	0.040	24.542	0.000	0.012
81.86	1.000	0.041	25.135	0.000	0.012
82.15	1.000	0.042	25.727	0.000	0.012
82.44	1.000	0.043	26.316	0.000	0.012
82.74	1.000	0.044	26.904	0.000	0.012
83.03	1.000	0.045	27.490	0.000	0.012
83.33	1.000	0.046	28.075	0.000	0.012
83.62	1.000	0.047	28.658	0.000	0.012
83.91	1.000	0.048	29.239	0.000	0.012
84.21	1.000	0.049	29.818	0.000	0.012
84.50	1.000	0.050	30.396	0.000	0.013
84.79	1.000	0.051	30.972	0.000	0.013
85.09	1.000	0.052	31.546	0.000	0.013
85.38	1.000	0.053	32.119	0.000	0.013
85.67	1.000	0.054	32.690	0.000	0.013
85.97	1.000	0.055	33.259	0.000	0.013
86.26	1.000	0.056	33.827	0.000	0.013
86.55	1.000	0.057	34.393	0.000	0.013
86.85	1.000	0.058	34.957	0.000	0.013
87.14	1.000	0.059	35.520	0.000	0.013
87.43	1.000	0.060	36.081	0.000	0.013
87.73	1.000	0.061	36.640	0.000	0.013
88.02	1.000	0.062	37.198	0.000	0.013
88.31	1.000	0.063	37.754	0.000	0.013
88.61	1.000	0.064	38.308	0.000	0.013
88.90	1.000	0.065	38.861	0.000	0.013
89.19	1.000	0.066	39.412	0.000	0.013
89.49	1.000	0.067	39.962	0.000	0.014
89.78	1.000	0.068	40.510	0.000	0.014
90.07	1.000	0.069	41.056	0.000	0.014
90.37	1.000	0.070	41.601	0.000	0.014
90.66	1.000	0.071	42.144	0.000	0.014
90.95	1.000	0.072	42.686	0.000	0.014
91.25	1.000	0.073	43.226	0.000	0.014
91.54	1.000	0.074	43.764	0.000	0.014
91.83	1.000	0.075	44.301	0.000	0.014
92.13	1.000	0.076	44.836	0.000	0.014
92.42	1.000	0.077	45.370	0.000	0.014
92.71	1.000	0.078	45.902	0.000	0.014
93.01	1.000	0.079	46.433	0.000	0.014
93.30	1.000	0.080	46.962	0.000	0.014
93.59	1.000	0.081	47.490	0.000	0.014
93.89	1.000	0.082	48.015	0.000	0.015
94.18	1.000	0.083	48.540	0.000	0.015
94.47	1.000	0.084	49.063	0.000	0.015
94.77	1.000	0.085	49.584	0.000	0.015
95.06	1.000	0.086	50.104	0.000	0.015
95.35	1.000	0.087	50.622	0.000	0.015
95.65	1.000	0.088	51.139	0.000	0.015
95.94	1.000	0.089	51.654	0.000	0.015
96.23	1.000	0.090	52.168	0.000	0.015
96.53	1.000	0.091	52.680	0.000	0.015
96.82	1.000	0.092	53.191	0.000	0.015
97.11	1.000	0.093	53.700	0.000	0.015
97.41	1.000	0.094	54.208	0.000	0.015
97.70	1.000	0.095	54.714	0.000	0.015
98.00	1.000	0.096	55.219	0.000	0.016
98.29	1.000	0.097	55.723	0.000	0.016
98.58	1.000	0.098	56.224	0.000	0.016
98.88	1.000	0.099	56.725	0.000	0.016
99.17	1.000	0.100	57.224	0.000	0.016
99.46	1.000	0.101	57.721	0.000	0.016
99.76	1.000	0.102	58.217	0.000	0.016
100.05	1.000	0.103	58.712	0.000	0.016
100.34	1.000	0.104	59.205	0.000	0.016
100.64	1.000	0.105	59.697	0.000	0.016
100.93	1.000	0.106	60.187	0.000	0.016
101.22	1.000	0.107	60.676	0.000	0.016
101.52	1.000	0.108	61.163	0.000	0.016
101.81	1.000	0.109	61.649	0.000	0.016
102.10	1.000	0.110	62.133	0.000	0.017
102.40	1.000	0.111	62.617	0.000	0.017
102.69	1.000	0.112	63.098	0.000	0.017
102.98	1.000	0.113	63.578	0.000	0.017
103.28	1.000	0.114	64.057	0.000	0.017
103.57	1.000	0.116	64.535	0.000	0.017
103.86	1.000	0.117	65.011	0.000	0.017
104.16	1.000	0.118	65.486	0.000	0.017
104.45	1.000	0.119	65.959	0.000	0.017
104.74	1.000	0.120	66.431	0.000	0.017
105.04	1.000	0.121	66.901	0.000	0.017
105.33	1.000	0.122	67.370	0.000	0.017
105.62	1.000	0.123	67.838	0.000	0.018
105.92	1.000	0.124	68.305	0.000	0.018
106.21	1.000	0.125	68.770	0.000	0.018
106.50	1.000	0.126	69.233	0.000	0.018
106.80	1.000	0.127	69.696	0.000	0.018
107.09	1.000	0.128	70.157	0.000	0.018
107.38	1.000	0.129	70.616	0.000	0.018
107.68	1.000	0.130	71.074	0.000	0.018
107.97	1.000	0.131	71.531	0.000	0.018
108.26	1.000	0.132	71.987	0.000	0.018
108.56	1.000	0.133	72.441	0.000	0.018
108.85	1.000	0.134	72.894	0.000	0.018
109.14	1.000	0.135	73.346	0.000	0.019
109.44	1.000	0.136	73.796	0.000	0.019
109.73	1.000	0.137	74.245	0.000	0.019
110.02	1.000	0.138	74.693	0.000	0.019
110.32	1.000	0.139	75.139	0.000	0.019
110.61	1.000	0.140	75.584	0.000	0.019
110.90	1.000	0.141	76.028	0.000	0.019
111.20	1.000	0.142	76.470	0.000	0.019
111.49	1.000	0.143	76.911	0.000	0.019
111.78	1.000	0.144	77.351	0.000	0.019
112.08	1.000	0.145	77.790	0.000	0.019
112.37	1.000	0.146	78.227	0.000	0.020
112.67	1.000	0.147	78.663	0.000	0.020
112.96	1.000	0.148	79.098	0.000	0.020
113.25	1.000	0.149	79.531	0.000	0.020
113.55	1.000	0.150	79.963	0.000	0.020
113.84	1.000	0.151	80.394	0.000	0.020
114.13	1.000	0.152	80.824	0.000	0.020
114.43	1.000	0.153	81.252	0.000	0.020
114.72	1.000	0.154	81.679	0.000	0.020
115.01	1.000	0.155	82.105	0.000	0.020
115.31	1.000	0.156	82.530	0.000	0.020
115.60	1.000	0.157	82.953	0.000	0.021
115.89	1.000	0.158	83.375	0.000	0.021
116.19	1.000	0.159	83.796	0.000	0.021
116.48	1.000	0.160	84.216	0.000	0.021
116.77	1.000	0.161	84.634	0.000	0.021
117.07	1.000	0.162	85.052	0.000	0.021
117.36	1.000	0.163	85.468	0.000	0.021
117.65	1.000	0.164	85.882	0.000	0.021
117.95	1.000	0.165	86.296	0.000	0.021
118.24	1.000	0.166	86.708	0.000	0.021
118.53	1.000	0.167	87.120	0.000	0.022
118.83	1.000	0.168	87.529	0.000	0.022
119.12	1.000	0.169	87.938	0.000	0.022
119.41	1.000	0.170	88.346	0.000	0.022
119.71	1.000	0.171	88.752	0.000	0.022
120.00	1.000	0.172	89.157	0.000	0.022
120.29	1.000	0.173	89.561	0.000	0.022
120.59	1.000	0.174	89.964	0.000	0.022
120.88	1.000	0.175	90.366	0.000	0.022
121.17	1.000	0.176	90.766	0.000	0.022
121.47	1.000	0.177	91.166	0.000	0.023
121.76	1.000	0.178	91.564	0.000	0.023
122.05	1.000	0.179	91.961	0.000	0.023
122.35	1.000	0.180	92.356	0.000	0.023
122.64	1.000	0.181	92.751	0.000	0.023
122.93	1.000	0.182	93.144	0.000	0.023
123.23	1.000	0.183	93.537	0.000	0.023
123.52	1.000	0.184	93.928	0.000	0.023
123.81	1.000	0.185	94.318	0.000	0.023
124.11	1.000	0.186	94.707	0.000	0.024
124.40	1.000	0.187	95.095	0.000	0.024
124.69	1.000	0.188	95.481	0.000	0.024
124.99	1.000	0.189	95.867	0.000	0.024
125.28	1.000	0.190	96.251	0.000	0.024
125.57	1.000	0.191	96.634	0.000	0.024
125.87	1.000	0.193	97.016	0.000	0.024
126.16	1.000	0.194	97.397	0.000	0.024
126.45	1.000	0.195	97.777	0.000	0.024
126.75	1.000	0.196	98.156	0.000	0.025
127.04	1.000	0.197	98.534	0.000	0.025
127.33	1.000	0.198	98.910	0.000	0.025
127.63	1.000	0.199	99.286	0.000	0.025
127.92	1.000	0.200	99.660	0.000	0.025
128.22	1.000	0.201	100.033	0.000	0.025
128.51	1.000	0.202	100.405	0.000	0.025
128.80	1.000	0.203	100.777	0.000	0.025
129.10	1.000	0.204	101.147	0.000	0.025
129.39	1.000	0.205	101.515	0.000	0.026
129.68	1.000	0.206	101.883	0.000	0.026
129.98	1.000	0.207	102.250	0.000	0.026
130.27	1.000	0.208	102.616	0.000	0.026
130.56	1.000	0.209	102.980	0.000	0.026
130.86	1.000	0.210	103.344	0.000	0.026
131.15	1.000	0.211	103.706	0.000	0.026
131.44	1.000	0.212	104.068	0.000	0.026
131.74	1.000	0.213	104.428	0.000	0.027
132.03	1.000	0.214	104.787	0.000	0.027
132.32	1.000	0.215	105.146	0.000	0.027
132.62	1.000	0.216	105.503	0.000	0.027
132.91	1.000	0.217	105.859	0.000	0.027
133.20	1.000	0.218	106.214	0.000	0.027
133.50	1.000	0.219	106.568	0.000	0.027
133.79	1.000	0.220	106.921	0.000	0.027
134.08	1.000	0.221	107.273	0.000	0.028
134.38	1.000	0.222	107.624	0.000	0.028
134.67	1.000	0.223	107.974	0.000	0.028
134.96	1.000	0.224	108.323	0.000	0.028
135.26	1.000	0.225	108.671	0.000	0.028
135.55	1.000	0.226	109.018	0.000	0.028
135.84	1.000	0.227	109.364	0.000	0.028
136.14	1.000	0.228	109.708	0.000	0.028
136.43	1.000	0.229	110.052	0.000	0.029
136.72	1.000	0.230	110.395	0.000	0.029
137.02	1.000	0.231	110.737	0.000	0.029
137.31	1.000	0.232	111.078	0.000	0.029
137.60	1.000	0.233	111.418	0.000	0.029
137.90	1.000	0.234	111.756	0.000	0.029
138.19	1.000	0.235	112.094	0.000	0.029
138.48	1.000	0.236	112.431	0.000	0.030
138.78	1.000	0.237	112.767	0.000	0.030
139.07	1.000	0.238	113.102	0.000	0.030
139.36	1.000	0.239	113.436	0.000	0.030
139.66	1.000	0.240	113.769	0.000	0.030
139.95	1.000	0.241	114.101	0.000	0.030
140.24	1.000	0.242	114.432	0.000	0.030
140.54	1.000	0.243	114.762	0.000	0.031
140.83	1.000	0.244	115.091	0.000	0.031
141.12	1.000	0.245	115.419	0.000	0.031
141.42	1.000	0.246	115.746	0.000	0.031
141.71	1.000	0.247	116.072	0.000	0.031
142.00	1.000	0.248	116.397	0.000	0.031
142.30	1.000	0.249	116.721	0.000	0.031
142.59	1.000	0.250	117.045	0.000	0.032
142.89	1.000	0.251	117.367	0.000	0.032
143.18	1.000	0.252	117.689	0.000	0.032
143.47	1.000	0.253	118.009	0.000	0.032
143.77	1.000	0.254	118.329	0.000	0.032
144.06	1.000	0.255	118.647	0.000	0.032
144.35	1.000	0.256	118.965	0.000	0.032
144.65	1.000	0.257	119.282	0.000	0.033
144.94	1.000	0.258	119.597	0.000	0.033
145.23	1.000	0.259	119.912	0.000	0.033
145.53	1.000	0.260	120.226	0.000	0.033
145.82	1.000	0.261	120.539	0.000	0.033
146.11	1.000	0.262	120.851	0.000	0.033
146.41	1.000	0.263	121.163	0.000	0.034
146.70	1.000	0.264	121.473	0.000	0.034
146.99	1.000	0.265	121.782	0.000	0.034
147.29	1.000	0.266	122.091	0.000	0.034
147.58	1.000	0.267	122.398	0.000	0.034
147.87	1.000	0.268	122.705	0.000	0.034
148.17	1.000	0.270	123.011	0.000	0.034
148.46	1.000	0.271	123.316	0.000	0.035
148.75	1.000	0.272	123.620	0.000	0.035
149.05	1.000	0.273	123.923	0.000	0.035
149.34	1.000	0.274	124.225	0.000	0.035
149.63	1.000	0.275	124.527	0.000	0.035
149.93	1.000	0.276	124.827	0.000	0.035
150.22	1.000	0.277	125.127	0.000	0.036
150.51	1.000	0.278	125.425	0.000	0.036
150.81	1.000	0.279	125.723	0.000	0.036
151.10	1.000	0.280	126.020	0.000	0.036
151.39	1.000	0.281	126.316	0.000	0.036
151.69	1.000	0.282	126.611	0.000	0.036
151.98	1.000	0.283	126.906	0.000	0.037
152.27	1.000	0.284	127.199	0.000	0.037
152.57	1.000	0.285	127.492	0.000	0.037
152.86	1.000	0.286	127.784	0.000	0.037
153.15	1.000	0.287	128.075	0.000	0.037
153.45	1.000	0.288	128.365	0.000	0.038
153.74	1.000	0.289	128.654	0.000	0.038
154.03	1.000	0.290	128.942	0.000	0.038
154.33	1.000	0.291	129.230	0.000	0.038
154.62	1.000	0.292	129.517	0.000	0.038
154.91	1.000	0.293	129.802	0.000	0.038
155.21	1.000	0.294	130.087	0.000	0.039
155.50	1.000	0.295	130.372	0.000	0.039
155.79	1.000	0.296	130.655	0.000	0.039
156.09	1.000	0.297	130.938	0.000	0.039
156.38	1.000	0.298	131.219	0.000	0.039
156.67	1.000	0.299	131.500	0.000	0.039
156.97	1.000	0.300	131.780	0.000	0.040
157.26	1.000	0.301	132.059	0.000	0.040
157.56	1.000	0.302	132.338	0.000	0.040
157.85	1.000	0.303	132.615	0.000	0.040
158.14	1.000	0.304	132.892	0.000	0.040
158.44	1.000	0.305	133.168	0.000	0.041
158.73	1.000	0.306	133.443	0.000	0.041
159.02	1.000	0.307	133.718	0.000	0.041
159.32	1.000	0.308	133.991	0.000	0.041
159.61	1.000	0.309	134.264	0.000	0.041
159.90	1.000	0.310	134.536	0.000	0.042
160.20	1.000	0.311	134.807	0.000	0.042
160.49	1.000	0.312	135.077	0.000	0.042
160.78	1.000	0.313	135.347	0.000	0.042
161.08	1.000	0.314	135.616	0.000	0.042
161.37	1.000	0.315	135.884	0.000	0.043
161.66	1.000	0.316	136.151	0.000	0.043
161.96	1.000	0.317	136.418	0.000	0.043
162.25	1.000	0.318	136.683	0.000	0.043
162.54	1.000	0.319	136.948	0.000	0.043
162.84	1.000	0.320	137.212	0.000	0.044
163.13	1.000	0.321	137.476	0.000	0.044
163.42	1.000	0.322	137.738	0.000	0.044
163.72	1.000	0.323	138.000	0.000	0.044
164.01	1.000	0.324	138.261	0.000	0.044
164.30	1.000	0.325	138.521	0.000	0.045
164.60	1.000	0.326	138.781	0.000	0.045
164.89	1.000	0.327	139.039	0.000	0.045
165.18	1.000	0.328	139.297	0.000	0.045
165.48	1.000	0.329	139.555	0.000	0.045
165.77	1.000	0.330	139.811	0.000	0.046
166.06	1.000	0.331	140.067	0.000	0.046
166.36	1.000	0.332	140.322	0.000	0.046
166.65	1.000	0.333	140.576	0.000	0.046
166.94	1.000	0.334	140.829	0.000	0.046
167.24	1.000	0.335	141.082	0.000	0.047
167.53	1.000	0.336	141.334	0.000	0.047
167.82	1.000	0.337	141.585	0.000	0.047
168.12	1.000	0.338	141.836	0.000	0.047
168.41	1.000	0.339	142.086	0.000	0.048
168.70	1.000	0.340	142.335	0.000	0.048
169.00	1.000	0.341	142.583	0.000	0.048
169.29	1.000	0.342	142.831	0.000	0.048
169.58	1.000	0.343	143.078	0.000	0.048
169.88	1.000	0.344	143.324	0.000	0.049
170.17	1.000	0.345	143.569	0.000	0.049
170.46	1.000	0.347	143.814	0.000	0.049
170.76	1.000	0.348	144.058	0.000	0.049
171.05	1.000	0.349	144.301	0.000	0.050
171.34	1.000	0.350	144.544	0.000	0.050
171.64	1.000	0.351	144.786	0.000	0.050
171.93	1.000	0.352	145.027	0.000	0.050
172.22	1.000	0.353	145.267	0.000	0.051
172.52	1.000	0.354	145.507	0.000	0.051
172.81	1.000	0.355	145.746	0.000	0.051
173.11	1.000	0.356	145.985	0.000	0.051
173.40	1.000	0.357	146.222	0.000	0.052
173.69	1.000	0.358	146.459	0.000	0.052
173.99	1.000	0.359	146.695	0.000	0.052
174.28	1.000	0.360	146.931	0.000	0.052
174.57	1.000	0.361	147.166	0.000	0.052
174.87	1.000	0.362	147.400	0.000	0.053
175.16	1.000	0.363	147.634	0.000	0.053
175.45	1.000	0.364	147.866	0.000	0.053
175.75	1.000	0.365	148.099	0.000	0.053
176.04	1.000	0.366	148.330	0.000	0.054
176.33	1.000	0.367	148.561	0.000	0.054
176.63	1.000	0.368	148.791	0.000	0.054
176.92	1.000	0.369	149.020	0.000	0.054
177.21	1.000	0.370	149.249	0.000	0.055
177.51	1.000	0.371	149.477	0.000	0.055
177.80	1.000	0.372	149.705	0.000	0.055
178.09	1.000	0.373	149.931	0.000	0.056
178.39	1.000	0.374	150.158	0.000	0.056
178.68	1.000	0.375	150.383	0.000	0.056
178.97	1.000	0.376	150.608	0.000	0.056
179.27	1.000	0.377	150.832	0.000	0.057
179.56	1.000	0.378	151.055	0.000	0.057
179.85	1.000	0.379	151.278	0.000	0.057
180.15	1.000	0.380	151.500	0.000	0.057
180.44	1.000	0.381	151.722	0.000	0.058
180.73	1.000	0.382	151.943	0.000	0.058
181.03	1.000	0.383	152.163	0.000	0.058
181.32	1.000	0.384	152.382	0.000	0.058
181.61	1.000	0.385	152.601	0.000	0.059
181.91	1.000	0.386	152.820	0.000	0.059
182.20	1.000	0.387	153.037	0.000	0.059
182.49	1.000	0.388	153.254	0.000	0.060
182.79	1.000	0.389	153.471	0.000	0.060
183.08	1.000	0.390	153.686	0.000	0.060
183.37	1.000	0.391	153.902	0.000	0.060
183.67	1.000	0.392	154.116	0.000	0.061
183.96	1.000	0.393	154.330	0.000	0.061
184.25	1.000	0.394	154.543	0.000	0.061
184.55	1.000	0.395	154.756	0.000	0.062
184.84	1.000	0.396	154.968	0.000	0.062
185.13	1.000	0.397	155.179	0.000	0.062
185.43	1.000	0.398	155.390	0.000	0.062
185.72	1.000	0.399	155.600	0.000	0.063
186.01	1.000	0.400	155.809	0.000	0.063
186.31	1.000	0.401	156.018	0.000	0.063
186.60	1.000	0.402	156.227	0.000	0.064
186.89	1.000	0.403	156.434	0.000	0.064
187.19	1.000	0.404	156.641	0.000	0.064
187.48	1.000	0.405	156.848	0.000	0.064
187.78	1.000	0.406	157.054	0.000	0.065
188.07	1.000	0.407	157.259	0.000	0.065
188.36	1.000	0.408	157.464	0.000	0.065
188.66	1.000	0.409	157.668	0.000	0.066
188.95	1.000	0.410	157.871	0.000	0.066
189.24	1.000	0.411	158.074	0.000	0.066
189.54	1.000	0.412	158.276	0.000	0.067
189.83	1.000	0.413	158.478	0.000	0.067
190.12	1.000	0.414	158.679	0.000	0.067
190.42	1.000	0.415	158.879	0.000	0.068
190.71	1.000	0.416	159.079	0.000	0.068
191.00	1.000	0.417	159.279	0.000	0.068
191.30	1.000	0.418	159.477	0.000	0.069
191.59	1.000	0.419	159.676	0.000	0.069
191.88	1.000	0.420	159.873	0.000	0.069
192.18	1.000	0.421	160.070	0.000	0.069
192.47	1.000	0.422	160.267	0.000	0.070
192.76	1.000	0.424	160.462	0.000	0.070
193.06	1.000	0.425	160.658	0.000	0.070
193.35	1.000	0.426	160.852	0.000	0.071
193.64	1.000	0.427	161.047	0.000	0.071
193.94	1.000	0.428	161.240	0.000	0.071
194.23	1.000	0.429	161.433	0.000	0.072
194.52	1.000	0.430	161.626	0.000	0.072
194.82	1.000	0.431	161.817	0.000	0.072
195.11	1.000	0.432	162.009	0.000	0.073
195.40	1.000	0.433	162.199	0.000	0.073
195.70	1.000	0.434	162.390	0.000	0.073
195.99	1.000	0.435	162.579	0.000	0.074
196.28	1.000	0.436	162.768	0.000	0.074
196.58	1.000	0.437	162.957	0.000	0.075
196.87	1.000	0.438	163.145	0.000	0.075
197.16	1.000	0.439	163.332	0.000	0.075
197.46	1.000	0.440	163.519	0.000	0.076
197.75	1.000	0.441	163.705	0.000	0.076
198.04	1.000	0.442	163.891	0.000	0.076
198.34	1.000	0.443	164.076	0.000	0.077
198.63	1.000	0.444	164.261	0.000	0.077
198.92	1.000	0.445	164.445	0.000	0.077
199.22	1.000	0.446	164.629	0.000	0.078
199.51	1.000	0.447	164.812	0.000	0.078
199.80	1.000	0.448	164.995	0.000	0.078
200.10	1.000	0.449	165.177	0.000	0.079
200.39	1.000	0.450	165.358	0.000	0.079
200.68	1.000	0.451	165.539	0.000	0.080
200.98	1.000	0.452	165.719	0.000	0.080
201.27	1.000	0.453	165.899	0.000	0.080
201.56	1.000	0.454	166.079	0.000	0.081
201.86	1.000	0.455	166.258	0.000	0.081
202.15	1.000	0.456	166.436	0.000	0.081
202.44	1.000	0.457	166.614	0.000	0.082
202.74	1.000	0.458	166.791	0.000	0.082
203.03	1.000	0.459	166.968	0.000	0.083
203.33	1.000	0.460	167.144	0.000	0.083
203.62	1.000	0.461	167.320	0.000	0.083
203.91	1.000	0.462	167.495	0.000	0.084
204.21	1.000	0.463	167.669	0.000	0.084
204.50	1.000	0.464	167.844	0.000	0.085
204.79	1.000	0.465	168.017	0.000	0.085
205.09	1.000	0.466	168.190	0.000	0.085
205.38	1.000	0.467	168.363	0.000	0.086
205.67	1.000	0.468	168.535	0.000	0.086
205.97	1.000	0.469	168.707	0.000	0.087
206.26	1.000	0.470	168.878	0.000	0.087
206.55	1.000	0.471	169.049	0.000	0.087
206.85	1.000	0.472	169.219	0.000	0.088
207.14	1.000	0.473	169.388	0.000	0.088
207.43	1.000	0.474	169.558	0.000	0.089
207.73	1.000	0.475	169.726	0.000	0.089
208.02	1.000	0.476	169.894	0.000	0.089
208.31	1.000	0.477	170.062	0.000	0.090
208.61	1.000	0.478	170.229	0.000	0.090
208.90	1.000	0.479	170.396	0.000	0.091
209.19	1.000	0.480	170.562	0.000	0.091
209.49	1.000	0.481	170.728	0.000	0.092
209.78	1.000	0.482	170.893	0.000	0.092
210.07	1.000	0.483	171.058	0.000	0.092
210.37	1.000	0.484	171.222	0.000	0.093
210.66	1.000	0.485	171.386	0.000	0.093
210.95	1.000	0.486	171.549	0.000	0.094
211.25	1.000	0.487	171.712	0.000	0.094
211.54	1.000	0.488	171.874	0.000	0.095
211.83	1.000	0.489	172.036	0.000	0.095
212.13	1.000	0.490	172.198	0.000	0.095
212.42	1.000	0.491	172.359	0.000	0.096
212.71	1.000	0.492	172.519	0.000	0.096
213.01	1.000	0.493	172.679	0.000	0.097
213.30	1.000	0.494	172.839	0.000	0.097
213.59	1.000	0.495	172.998	0.000	0.098
213.89	1.000	0.496	173.156	0.000	0.098
214.18	1.000	0.497	173.314	0.000	0.099
214.47	1.000	0.498	173.472	0.000	0.099
214.77	1.000	0.499	173.629	0.000	0.100
215.06	1.000	0.501	173.786	0.000	0.100
215.35	1.000	0.502	173.942	0.000	0.100
215.65	1.000	0.503	174.098	0.000	0.101
215.94	1.000	0.504	174.253	0.000	0.101
216.23	1.000	0.505	174.408	0.000	0.102
216.53	1.000	0.506	174.563	0.000	0.102
216.82	1.000	0.507	174.717	0.000	0.103
217.11	1.000	0.508	174.870	0.000	0.103
217.41	1.000	0.509	175.023	0.000	0.104
217.70	1.000	0.510	175.176	0.000	0.104
218.00	1.000	0.511	175.328	0.000	0.105
218.29	1.000	0.512	175.480	0.000	0.105
218.58	1.000	0.513	175.631	0.000	0.106
218.88	1.000	0.514	175.782	0.000	0.106
219.17	1.000	0.515	175.933	0.000	0.107
219.46	1.000	0.516	176.083	0.000	0.107
219.76	1.000	0.517	176.232	0.000	0.108
220.05	1.000	0.518	176.381	0.000	0.108
220.34	1.000	0.519	176.530	0.000	0.109
220.64	1.000	0.520	176.678	0.000	0.109
220.93	1.000	0.521	176.826	0.000	0.110
221.22	1.000	0.522	176.973	0.000	0.110
221.52	1.000	0.523	177.120	0.000	0.111
221.81	1.000	0.524	177.267	0.000	0.111
222.10	1.000	0.525	177.413	0.000	0.112
222.40	1.000	0.526	177.559	0.000	0.112
222.69	1.000	0.527	177.704	0.000	0.113
222.98	1.000	0.528	177.849	0.000	0.113
223.28	1.000	0.529	177.993	0.000	0.114
223.57	1.000	0.530	178.137	0.000	0.115
223.86	1.000	0.531	178.280	0.000	0.115
224.16	1.000	0.532	178.424	0.000	0.116
224.45	1.000	0.533	178.566	0.000	0.116
224.74	1.000	0.534	178.709	0.000	0.117
225.04	1.000	0.535	178.850	0.000	0.117
225.33	1.000	0.536	178.992	0.000	0.118
225.62	1.000	0.537	179.133	0.000	0.118
225.92	1.000	0.538	179.274	0.000	0.119
226.21	1.000	0.539	179.414	0.000	0.119
226.50	1.000	0.540	179.554	0.000	0.120
226.80	1.000	0.541	179.693	0.000	0.121
227.09	1.000	0.542	179.832	0.000	0.121
227.38	1.000	0.543	179.971	0.000	0.122
227.68	1.000	0.544	180.109	0.000	0.122
227.97	1.000	0.545	180.246	0.000	0.123
228.26	1.000	0.546	180.384	0.000	0.123
228.56	1.000	0.547	180.521	0.000	0.124
228.85	1.000	0.548	180.657	0.000	0.125
229.14	1.000	0.549	180.793	0.000	0.125
229.44	1.000	0.550	180.929	0.000	0.126
229.73	1.000	0.551	181.065	0.000	0.126
230.02	1.000	0.552	181.200	0.000	0.127
230.32	1.000	0.553	181.334	0.000	0.127
230.61	1.000	0.554	181.468	0.000	0.128
230.90	1.000	0.555	181.602	0.000	0.129
231.20	1.000	0.556	181.736	0.000	0.129
231.49	1.000	0.557	181.869	0.000	0.130
231.78	1.000	0.558	182.001	0.000	0.131
232.08	1.000	0.559	182.133	0.000	0.131
232.37	1.000	0.560	182.265	0.000	0.132
232.67	1.000	0.561	182.397	0.000	0.132
232.96	1.000	0.562	182.528	0.000	0.133
233.25	1.000	0.563	182.658	0.000	0.134
233.55	1.000	0.564	182.789	0.000	0.134
233.84	1.000	0.565	182.919	0.000	0.135
234.13	1.000	0.566	183.048	0.000	0.135
234.43	1.000	0.567	183.177	0.000	0.136
234.72	1.000	0.568	183.306	0.000	0.137
235.01	1.000	0.569	183.435	0.000	0.137
235.31	1.000	0.570	183.563	0.000	0.138
235.60	1.000	0.571	183.690	0.000	0.139
235.89	1.000	0.572	183.818	0.000	0.139
236.19	1.000	0.573	183.944	0.000	0.140
236.48	1.000	0.574	184.071	0.000	0.141
236.77	1.000	0.575	184.197	0.000	0.141
237.07	1.000	0.576	184.323	0.000	0.142
237.36	1.000	0.578	184.448	0.000	0.143
237.65	1.000	0.579	184.573	0.000	0.143
237.95	1.000	0.580	184.698	0.000	0.144
238.24	1.000	0.581	184.822	0.000	0.145
238.53	1.000	0.582	184.946	0.000	0.145
238.83	1.000	0.583	185.070	0.000	0.146
239.12	1.000	0.584	185.193	0.000	0.147
239.41	1.000	0.585	185.316	0.000	0.147
239.71	1.000	0.586	185.439	0.000	0.148
240.00	1.000	0.587	185.561	0.000	0.149
240.29	1.000	0.588	185.683	0.000	0.149
240.59	1.000	0.589	185.804	0.000	0.150
240.88	1.000	0.590	185.925	0.000	0.151
241.17	1.000	0.591	186.046	0.000	0.152
241.47	1.000	0.592	186.166	0.000	0.152
241.76	1.000	0.593	186.286	0.000	0.153
242.05	1.000	0.594	186.406	0.000	0.154
242.35	1.000	0.595	186.525	0.000	0.154
242.64	1.000	0.596	186.644	0.000	0.155
242.93	1.000	0.597	186.763	0.000	0.156
243.23	1.000	0.598	186.881	0.000	0.157
243.52	1.000	0.599	186.999	0.000	0.157
243.81	1.000	0.600	187.117	0.000	0.158
244.11	1.000	0.601	187.234	0.000	0.159
244.40	1.000	0.602	187.351	0.000	0.160
244.69	1.000	0.603	187.468	0.000	0.160
244.99	1.000	0.604	187.584	0.000	0.161
245.28	1.000	0.605	187.700	0.000	0.162
245.57	1.000	0.606	187.815	0.000	0.163
245.87	1.000	0.607	187.930	0.000	0.163
246.16	1.000	0.608	188.045	0.000	0.164
246.45	1.000	0.609	188.160	0.000	0.165
246.75	1.000	0.610	188.274	0.000	0.166
247.04	1.000	0.611	188.388	0.000	0.166
247.33	1.000	0.612	188.502	0.000	0.167
247.63	1.000	0.613	188.615	0.000	0.168
247.92	1.000	0.614	188.728	0.000	0.169
248.22	1.000	0.615	188.840	0.000	0.170
248.51	1.000	0.616	188.952	0.000	0.170
248.80	1.000	0.617	189.064	0.000	0.171
249.10	1.000	0.618	189.176	0.000	0.172
249.39	1.000	0.619	189.287	0.000	0.173
249.68	1.000	0.620	189.398	0.000	0.174
249.98	1.000	0.621	189.508	0.000	0.174
250.27	1.000	0.622	189.619	0.000	0.175
250.56	1.000	0.623	189.729	0.000	0.176
250.86	1.000	0.624	189.838	0.000	0.177
251.15	1.000	0.625	189.948	0.000	0.178
251.44	1.000	0.626	190.057	0.000	0.178
251.74	1.000	0.627	190.165	0.000	0.179
252.03	1.000	0.628	190.273	0.000	0.180
252.32	1.000	0.629	190.382	0.000	0.181
252.62	1.000	0.630	190.489	0.000	0.182
252.91	1.000	0.631	190.597	0.000	0.183
253.20	1.000	0.632	190.704	0.000	0.184
253.50	1.000	0.633	190.810	0.000	0.184
253.79	1.000	0.634	190.917	0.000	0.185
254.08	1.000	0.635	191.023	0.000	0.186
254.38	1.000	0.636	191.129	0.000	0.187
254.67	1.000	0.637	191.234	0.000	0.188
254.96	1.000	0.638	191.340	0.000	0.189
255.26	1.000	0.639	191.444	0.000	0.190
255.55	1.000	0.640	191.549	0.000	0.191
255.84	1.000	0.641	191.653	0.000	0.191
256.14	1.000	0.642	191.757	0.000	0.192
256.43	1.000	0.643	191.861	0.000	0.193
256.72	1.000	0.644	191.964	0.000	0.194
257.02	1.000	0.645	192.067	0.000	0.195
257.31	1.000	0.646	192.170	0.000	0.196
257.60	1.000	0.647	192.273	0.000	0.197
257.90	1.000	0.648	192.375	0.000	0.198
258.19	1.000	0.649	192.477	0.000	0.199
258.48	1.000	0.650	192.578	0.000	0.200
258.78	1.000	0.651	192.679	0.000	0.201
259.07	1.000	0.652	192.780	0.000	0.201
259.36	1.000	0.653	192.881	0.000	0.202
259.66	1.000	0.655	192.981	0.000	0.203
259.95	1.000	0.656	193.082	0.000	0.204
260.24	1.000	0.657	193.181	0.000	0.205
260.54	1.000	0.658	193.281	0.000	0.206
260.83	1.000	0.659	193.380	0.000	0.207
261.12	1.000	0.660	193.479	0.000	0.208
261.42	1.000	0.661	193.578	0.000	0.209
261.71	1.000	0.662	193.676	0.000	0.210
262.00	1.000	0.663	193.774	0.000	0.211
262.30	1.000	0.664	193.872	0.000	0.212
262.59	1.000	0.665	193.969	0.000	0.213
262.89	1.000	0.666	194.066	0.000	0.214
263.18	1.000	0.667	194.163	0.000	0.215
263.47	1.000	0.668	194.260	0.000	0.216
263.77	1.000	0.669	194.356	0.000	0.217
264.06	1.000	0.670	194.452	0.000	0.218
264.35	1.000	0.671	194.548	0.000	0.219
264.65	1.000	0.672	194.644	0.000	0.220
264.94	1.000	0.673	194.739	0.000	0.221
265.23	1.000	0.674	194.834	0.000	0.222
265.53	1.000	0.675	194.929	0.000	0.223
265.82	1.000	0.676	195.023	0.000	0.224
266.11	1.000	0.677	195.117	0.000	0.225
266.41	1.000	0.678	195.211	0.000	0.226
266.70	1.000	0.679	195.304	0.000	0.228
266.99	1.000	0.680	195.398	0.000	0.229
267.29	1.000	0.681	195.491	0.000	0.230
267.58	1.000	0.682	195.583	0.000	0.231
267.87	1.000	0.683	195.676	0.000	0.232
268.17	1.000	0.684	195.768	0.000	0.233
268.46	1.000	0.685	195.860	0.000	0.234
268.75	1.000	0.686	195.952	0.000	0.235
269.05	1.000	0.687	196.043	0.000	0.236
269.34	1.000	0.688	196.134	0.000	0.237
269.63	1.000	0.689	196.225	0.000	0.238
269.93	1.000	0.690	196.316	0.000	0.240
270.22	1.000	0.691	196.406	0.000	0.241
270.51	1.000	0.692	196.496	0.000	0.242
270.81	1.000	0.693	196.586	0.000	0.243
271.10	1.000	0.694	196.675	0.000	0.244
271.39	1.000	0.695	196.765	0.000	0.245
271.69	1.000	0.696	196.854	0.000	0.246
271.98	1.000	0.697	196.942	0.000	0.247
272.27	1.000	0.698	197.031	0.000	0.249
272.57	1.000	0.699	197.119	0.000	0.250
272.86	1.000	0.700	197.207	0.000	0.251
273.15	1.000	0.701	197.295	0.000	0.252
273.45	1.000	0.702	197.382	0.000	0.253
273.74	1.000	0.703	197.470	0.000	0.254
274.03	1.000	0.704	197.557	0.000	0.256
274.33	1.000	0.705	197.643	0.000	0.257
274.62	1.000	0.706	197.730	0.000	0.258
274.91	1.000	0.707	197.816	0.000	0.259
275.21	1.000	0.708	197.902	0.000	0.261
275.50	1.000	0.709	197.987	0.000	0.262
275.79	1.000	0.710	198.073	0.000	0.263
276.09	1.000	0.711	198.158	0.000	0.264
276.38	1.000	0.712	198.243	0.000	0.265
276.67	1.000	0.713	198.328	0.000	0.267
276.97	1.000	0.714	198.412	0.000	0.268
277.26	1.000	0.715	198.496	0.000	0.269
277.56	1.000	0.716	198.580	0.000	0.270
277.85	1.000	0.717	198.664	0.000	0.272
278.14	1.000	0.718	198.747	0.000	0.273
278.44	1.000	0.719	198.831	0.000	0.274
278.73	1.000	0.720	198.914	0.000	0.276
279.02	1.000	0.721	198.996	0.000	0.277
279.32	1.000	0.722	199.079	0.000	0.278
279.61	1.000	0.723	199.161	0.000	0.279
279.90	1.000	0.724	199.243	0.000	0.281
280.20	1.000	0.725	199.325	0.000	0.282
280.49	1.000	0.726	199.406	0.000	0.283
280.78	1.000	0.727	199.488	0.000	0.285
281.08	1.000	0.728	199.569	0.000	0.286
281.37	1.000	0.729	199.649	0.000	0.287
281.66	1.000	0.730	199.730	0.000	0.289
281.96	1.000	0.732	199.810	0.000	0.290
282.25	1.000	0.733	199.890	0.000	0.291
282.54	1.000	0.734	199.970	0.000	0.293
282.84	1.000	0.735	200.050	0.000	0.294
283.13	1.000	0.736	200.129	0.000	0.296
283.42	1.000	0.737	200.209	0.000	0.297
283.72	1.000	0.738	200.287	0.000	0.298
284.01	1.000	0.739	200.366	0.000	0.300
284.30	1.000	0.740	200.445	0.000	0.301
284.60	1.000	0.741	200.523	0.000	0.303
284.89	1.000	0.742	200.601	0.000	0.304
285.18	1.000	0.743	200.679	0.000	0.305
285.48	1.000	0.744	200.756	0.000	0.307
285.77	1.000	0.745	200.834	0.000	0.308
286.06	1.000	0.746	200.911	0.000	0.310
286.36	1.000	0.747	200.988	0.000	0.311
286.65	1.000	0.748	201.064	0.000	0.313
286.94	1.000	0.749	201.141	0.000	0.314
287.24	1.000	0.750	201.217	0.000	0.315
287.53	1.000	0.751	201.293	0.000	0.317
287.82	1.000	0.752	201.369	0.000	0.318
288.12	1.000	0.753	201.444	0.000	0.320
288.41	1.000	0.754	201.519	0.000	0.321
288.70	1.000	0.755	201.595	0.000	0.323
289.00	1.000	0.756	201.669	0.000	0.324
289.29	1.000	0.757	201.744	0.000	0.326
289.58	1.000	0.758	201.818	0.000	0.328
289.88	1.000	0.759	201.893	0.000	0.329
290.17	1.000	0.760	201.967	0.000	0.331
290.46	1.000	0.761	202.041	0.000	0.332
290.76	1.000	0.762	202.114	0.000	0.334
291.05	1.000	0.763	202.187	0.000	0.335
291.34	1.000	0.764	202.261	0.000	0.337
291.64	1.000	0.765	202.334	0.000	0.338
291.93	1.000	0.766	202.406	0.000	0.340
292.22	1.000	0.767	202.479	0.000	0.342
292.52	1.000	0.768	202.551	0.000	0.343
292.81	1.000	0.769	202.623	0.000	0.345
293.11	1.000	0.770	202.695	0.000	0.346
293.40	1.000	0.771	202.767	0.000	0.348
293.69	1.000	0.772	202.838	0.000	0.350
293.99	1.000	0.773	202.909	0.000	0.351
294.28	1.000	0.774	202.980	0.000	0.353
294.57	1.000	0.775	203.051	0.000	0.355
294.87	1.000	0.776	203.122	0.000	0.356
295.16	1.000	0.777	203.192	0.000	0.358
295.45	1.000	0.778	203.262	0.000	0.360
295.75	1.000	0.779	203.332	0.000	0.361
296.04	1.000	0.780	203.402	0.000	0.363
296.33	1.000	0.781	203.472	0.000	0.365
296.63	1.000	0.782	203.541	0.000	0.366
296.92	1.000	0.783	203.610	0.000	0.368
297.21	1.000	0.784	203.679	0.000	0.370
297.51	1.000	0.785	203.748	0.000	0.372
297.80	1.000	0.786	203.817	0.000	0.373
298.09	1.000	0.787	203.885	0.000	0.375
298.39	1.000	0.788	203.953	0.000	0.377
298.68	1.000	0.789	204.021	0.000	0.379
298.97	1.000	0.790	204.089	0.000	0.380
299.27	1.000	0.791	204.156	0.000	0.382
299.56	1.000	0.792	204.224	0.000	0.384
299.85	1.000	0.793	204.291	0.000	0.386
300.15	1.000	0.794	204.358	0.000	0.387
300.44	1.000	0.795	204.425	0.000	0.389
300.73	1.000	0.796	204.491	0.000	0.391
301.03	1.000	0.797	204.558	0.000	0.393
301.32	1.000	0.798	204.624	0.000	0.395
301.61	1.000	0.799	204.690	0.000	0.397
301.91	1.000	0.800	204.756	0.000	0.398
302.20	1.000	0.801	204.821	0.000	0.400
302.49	1.000	0.802	204.887	0.000	0.402
302.79	1.000	0.803	204.952	0.000	0.404
303.08	1.000	0.804	205.017	0.000	0.406
303.37	1.000	0.805	205.082	0.000	0.408
303.67	1.000	0.806	205.147	0.000	0.410
303.96	1.000	0.807	205.211	0.000	0.412
304.25	1.000	0.809	205.275	0.000	0.414
304.55	1.000	0.810	205.340	0.000	0.416
304.84	1.000	0.811	205.403	0.000	0.418
305.13	1.000	0.812	205.467	0.000	0.419
305.43	1.000	0.813	205.531	0.000	0.421
305.72	1.000	0.814	205.594	0.000	0.423
306.01	1.000	0.815	205.657	0.000	0.425
306.31	1.000	0.816	205.720	0.000	0.427
306.60	1.000	0.817	205.783	0.000	0.429
306.89	1.000	0.818	205.846	0.000	0.431
307.19	1.000	0.819	205.908	0.000	0.433
307.48	1.000	0.820	205.970	0.000	0.435
307.78	1.000	0.821	206.032	0.000	0.437
308.07	1.000	0.822	206.094	0.000	0.440
308.36	1.000	0.823	206.156	0.000	0.442
308.66	1.000	0.824	206.218	0.000	0.444
308.95	1.000	0.825	206.279	0.000	0.446
309.24	1.000	0.826	206.340	0.000	0.448
309.54	1.000	0.827	206.401	0.000	0.450
309.83	1.000	0.828	206.462	0.000	0.452
310.12	1.000	0.829	206.522	0.000	0.454
310.42	1.000	0.830	206.583	0.000	0.456
310.71	1.000	0.831	206.643	0.000	0.458
311.00	1.000	0.832	206.703	0.000	0.461
311.30	1.000	0.833	206.763	0.000	0.463
311.59	1.000	0.834	206.823	0.000	0.465
311.88	1.000	0.835	206.883	0.000	0.467
312.18	1.000	0.836	206.942	0.000	0.469
312.47	1.000	0.837	207.001	0.000	0.471
312.76	1.000	0.838	207.060	0.000	0.474
313.06	1.000	0.839	207.119	0.000	0.476
313.35	1.000	0.840	207.178	0.000	0.478
313.64	1.000	0.841	207.236	0.000	0.480
313.94	1.000	0.842	207.295	0.000	0.483
314.23	1.000	0.843	207.353	0.000	0.485
314.52	1.000	0.844	207.411	0.000	0.487
314.82	1.000	0.845	207.469	0.000	0.489
315.11	1.000	0.846	207.526	0.000	0.492
315.40	1.000	0.847	207.584	0.000	0.494
315.70	1.000	0.848	207.641	0.000	0.496
315.99	1.000	0.849	207.698	0.000	0.499
316.28	1.000	0.850	207.755	0.000	0.501
316.58	1.000	0.851	207.812	0.000	0.503
316.87	1.000	0.852	207.869	0.000	0.506
317.16	1.000	0.853	207.925	0.000	0.508
317.46	1.000	0.854	207.982	0.000	0.510
317.75	1.000	0.855	208.038	0.000	0.513
318.04	1.000	0.856	208.094	0.000	0.515
318.34	1.000	0.857	208.150	0.000	0.518
318.63	1.000	0.858	208.206	0.000	0.520
318.92	1.000	0.859	208.261	0.000	0.522
319.22	1.000	0.860	208.316	0.000	0.525
319.51	1.000	0.861	208.372	0.000	0.527
319.80	1.000	0.862	208.427	0.000	0.530
320.10	1.000	0.863	208.482	0.000	0.532
320.39	1.000	0.864	208.536	0.000	0.535
320.68	1.000	0.865	208.591	0.000	0.537
320.98	1.000	0.866	208.645	0.000	0.540
321.27	1.000	0.867	208.699	0.000	0.542
321.56	1.000	0.868	208.754	0.000	0.545
321.86	1.000	0.869	208.807	0.000	0.547
322.15	1.000	0.870	208.861	0.000	0.550
322.44	1.000	0.871	208.915	0.000	0.553
322.74	1.000	0.872	208.968	0.000	0.555
323.03	1.000	0.873	209.022	0.000	0.558
323.33	1.000	0.874	209.075	0.000	0.560
323.62	1.000	0.875	209.128	0.000	0.563
323.91	1.000	0.876	209.181	0.000	0.566
324.21	1.000	0.877	209.233	0.000	0.568
324.50	1.000	0.878	209.286	0.000	0.571
324.79	1.000	0.879	209.338	0.000	0.574
325.09	1.000	0.880	209.390	0.000	0.576
325.38	1.000	0.881	209.442	0.000	0.579
325.67	1.000	0.882	209.494	0.000	0.582
325.97	1.000	0.883	209.546	0.000	0.584
326.26	1.000	0.884	209.598	0.000	0.587
326.55	1.000	0.886	209.649	0.000	0.590
326.85	1.000	0.887	209.700	0.000	0.593
327.14	1.000	0.888	209.752	0.000	0.595
327.43	1.000	0.889	209.802	0.000	0.598
327.73	1.000	0.890	209.853	0.000	0.601
328.02	1.000	0.891	209.904	0.000	0.604
328.31	1.000	0.892	209.955	0.000	0.607
328.61	1.000	0.893	210.005	0.000	0.610
328.90	1.000	0.894	210.055	0.000	0.612
329.19	1.000	0.895	210.105	0.000	0.615
329.49	1.000	0.896	210.155	0.000	0.618
329.78	1.000	0.897	210.205	0.000	0.621
330.07	1.000	0.898	210.255	0.000	0.624
330.37	1.000	0.899	210.304	0.000	0.627
330.66	1.000	0.900	210.354	0.000	0.630
330.95	1.000	0.901	210.403	0.000	0.633
331.25	1.000	0.902	210.452	0.000	0.636
331.54	1.000	0.903	210.501	0.000	0.639
331.83	1.000	0.904	210.550	0.000	0.642
332.13	1.000	0.905	210.598	0.000	0.645
332.42	1.000	0.906	210.647	0.000	0.648
332.71	1.000	0.907	210.695	0.000	0.651
333.01	1.000	0.908	210.744	0.000	0.654
333.30	1.000	0.909	210.792	0.000	0.657
333.59	1.000	0.910	210.840	0.000	0.660
333.89	1.000	0.911	210.887	0.000	0.663
334.18	1.000	0.912	210.935	0.000	0.666
334.47	1.000	0.913	210.983	0.000	0.669
334.77	1.000	0.914	211.030	0.000	0.672
335.06	1.000	0.915	211.077	0.000	0.675
335.35	1.000	0.916	211.124	0.000	0.679
335.65	1.000	0.917	211.171	0.000	0.682
335.94	1.000	0.918	211.218	0.000	0.685
336.23	1.000	0.919	211.265	0.000	0.688
336.53	1.000	0.920	211.312	0.000	0.691
336.82	1.000	0.921	211.358	0.000	0.695
337.11	1.000	0.922	211.404	0.000	0.698
337.41	1.000	0.923	211.450	0.000	0.701
337.70	1.000	0.924	211.496	0.000	0.704
338.00	1.000	0.925	211.542	0.000	0.708
338.29	1.000	0.926	211.588	0.000	0.711
338.58	1.000	0.927	211.634	0.000	0.714
338.88	1.000	0.928	211.679	0.000	0.718
339.17	1.000	0.929	211.725	0.000	0.721
339.46	1.000	0.930	211.770	0.000	0.725
339.76	1.000	0.931	211.815	0.000	0.728
340.05	1.000	0.932	211.860	0.000	0.731
340.34	1.000	0.933	211.905	0.000	0.735
340.64	1.000	0.934	211.949	0.000	0.738
340.93	1.000	0.935	211.994	0.000	0.742
341.22	1.000	0.936	212.038	0.000	0.745
341.52	1.000	0.937	212.083	0.000	0.749
341.81	1.000	0.938	212.127	0.000	0.752
342.10	1.000	0.939	212.171	0.000	0.756
342.40	1.000	0.940	212.215	0.000	0.759
342.69	1.000	0.941	212.259	0.000	0.763
342.98	1.000	0.942	212.302	0.000	0.766
343.28	1.000	0.943	212.346	0.000	0.770
343.57	1.000	0.944	212.389	0.000	0.773
343.86	1.000	0.945	212.433	0.000	0.777
344.16	1.000	0.946	212.476	0.000	0.781
344.45	1.000	0.947	212.519	0.000	0.784
344.74	1.000	0.948	212.562	0.000	0.788
345.04	1.000	0.949	212.604	0.000	0.792
345.33	1.000	0.950	212.647	0.000	0.795
345.62	1.000	0.951	212.690	0.000	0.799
345.92	1.000	0.952	212.732	0.000	0.803
346.21	1.000	0.953	212.774	0.000	0.807
346.50	1.000	0.954	212.816	0.000	0.810
346.80	1.000	0.955	212.858	0.000	0.814
347.09	1.000	0.956	212.900	0.000	0.818
347.38	1.000	0.957	212.942	0.000	0.822
347.68	1.000	0.958	212.984	0.000	0.826
347.97	1.000	0.959	213.025	0.000	0.830
348.26	1.000	0.960	213.067	0.000	0.833
348.56	1.000	0.961	213.108	0.000	0.837
348.85	1.000	0.963	213.149	0.000	0.841
349.14	1.000	0.964	213.190	0.000	0.845
349.44	1.000	0.965	213.231	0.000	0.849
349.73	1.000	0.966	213.272	0.000	0.853
350.02	1.000	0.967	213.313	0.000	0.857
350.32	1.000	0.968	213.353	0.000	0.861
350.61	1.000	0.969	213.394	0.000	0.865
350.90	1.000	0.970	213.434	0.000	0.869
351.20	1.000	0.971	213.474	0.000	0.873
351.49	1.000	0.972	213.514	0.000	0.877
351.78	1.000	0.973	213.554	0.000	0.882
352.08	1.000	0.974	213.594	0.000	0.886
352.37	1.000	0.975	213.634	0.000	0.890
352.67	1.000	0.976	213.674	0.000	0.894
352.96	1.000	0.977	213.713	0.000	0.898
353.25	1.000	0.978	213.753	0.000	0.902
353.55	1.000	0.979	213.792	0.000	0.907
353.84	1.000	0.980	213.831	0.000	0.911
354.13	1.000	0.981	213.870	0.000	0.915
354.43	1.000	0.982	213.909	0.000	0.919
354.72	1.000	0.983	213.948	0.000	0.924
355.01	1.000	0.984	213.987	0.000	0.928
355.31	1.000	0.985	214.025	0.000	0.932
355.60	1.000	0.986	214.064	0.000	0.937
355.89	1.000	0.987	214.102	0.000	0.941
356.19	1.000	0.988	214.140	0.000	0.945
356.48	1.000	0.989	214.178	0.000	0.950
356.77	1.000	0.990	214.216	0.000	0.954
357.07	1.000	0.991	214.254	0.000	0.959
357.36	1.000	0.992	214.292	0.000	0.963
357.65	1.000	0.993	214.330	0.000	0.968
357.95	1.000	0.994	214.368	0.000	0.972
358.24	1.000	0.995	214.405	0.000	0.977
358.53	1.000	0.996	214.442	0.000	0.981
358.83	1.000	0.997	214.480	0.000	0.986
359.12	1.000	0.998	214.517	0.000	0.991
359.41	1.000	0.999	214.554	0.000	0.995
359.71	1.000	1.000	214.591	0.000	1.000
